Folder: CME502_FinalProject

File: N2 Adsorption-Jamie DeCoster.csv
P/P0 (400C),Volume Adsorbed (400C),P/P0 (500C),Volume Adsorbed (500C),P/P0 (700C),Volume Adsorbed (700C)
0.00952,32.5347,0.00572,30.6092,0.00749,15.7715
0.08183,44.2308,0.0866,41.6478,0.07881,19.0912
0.14929,51.7652,0.14571,47.3056,0.1453,21.1445
0.21771,59.2447,0.21961,54.6591,0.22048,23.8116
0.28639,67.0485,0.2881,62.6298,0.29037,26.591
0.36316,76.7264,0.35581,70.7754,0.36245,29.7357
0.43054,85.7584,0.42892,80.4444,0.42623,32.2514
0.50134,95.3723,0.50149,90.8586,0.4982,35.4807
0.56628,102.5865,0.56521,99.548,0.56604,39.2089
0.64022,108.1365,0.63589,107.6873,0.63861,44.9612
0.70528,110.3056,0.70951,113.5037,0.70818,55.9916
0.77653,111.4051,0.77681,114.246,0.77614,81.4384
0.84546,112.2885,0.84805,115.4239,0.84676,102.2336
0.92171,113.5469,0.91587,116.4199,0.92127,106.0331
0.99093,115.861,0.9938,118.22,0.99131,108.0872
0.92242,113.9569,0.92155,116.9428,0.92295,106.6477
0.85049,112.9216,0.84867,116.1605,0.85002,105.8465
0.77972,112.0699,0.77827,115.636,0.78121,105.2149
0.70913,111.2422,0.70832,114.9717,0.71016,101.9784
0.63791,110.3512,0.63797,114.0785,0.64332,56.8637
0.56802,109.3332,0.56781,113.0879,0.56479,42.1797
0.50121,107.6331,0.50385,110.5119,0.49469,37.1463
0.43289,93.6887,0.43379,89.6928,0.4216,33.33
0.35802,77.4496,0.36022,74.2442,0.36299,30.7092
0.28577,67.8299,0.28859,64.6174,0.28295,26.978
0.22272,60.2563,0.22203,56.5996,0.22322,24.279
0.15349,52.2831,0.14983,48.5717,0.15272,21.3889
0.08395,44.1607,0.0788,41.0388,0.08406,18.8513

File: XRD 400C-Jamie DeCoster.csv
2theta (400C),intensity (400C)
0.36387,-2193.2
0.40691,-2188.74
0.44996,-2184.2
0.493,-2181.93
0.53604,-2179.46
0.57908,-2173.63
0.62213,-2119.74
0.66517,-2057.15
0.70821,-2011.79
0.75126,-1970.78
0.7943,-1953.96
0.83734,-1957.14
0.88039,-1972.99
0.92343,-1990.54
0.96647,-2004.4
1.00951,-2014.54
1.05256,-2023.84
1.0956,-2031.02
1.13864,-2036.31
1.18169,-2040.17
1.22473,-2043.56
1.26777,-2046.94
1.31081,-2048.85
1.35386,-2050.58
1.3969,-2051.93
1.43994,-2052.37
1.48299,-2052.16
1.52603,-2052.3
1.56907,-2052.1
1.61211,-2051.99
1.65516,-2051.27
1.6982,-2050.79
1.74124,-2049.68
1.78429,-2048.8
1.82733,-2047.58
1.87037,-2046.57
1.91341,-2045.1
1.95646,-2043.87
1.9995,-2042.86
2.04254,-2042.41
2.08559,-2043.02
2.12863,-2043.4
2.17167,-2043.84
2.21471,-2043.83
2.25776,-2043.64
2.3008,-2042.89
2.34384,-2041.51
2.38689,-2039.74
2.42993,-2036.83
2.47297,-2033.28
2.51601,-2027.84
2.55906,-2021.37
2.6021,-2012.84
2.64514,-2001.18
2.68819,-1985.91
2.73123,-1964.06
2.77427,-1928.27
2.81731,-1866.62
2.86036,-1754.41
2.9034,-1536.54
2.94644,-1090.68
2.98949,-260.637
3.03253,626.831
3.07557,479.572
3.11862,-488.327
3.16166,-1229.46
3.2047,-1599.88
3.24774,-1774.96
3.29079,-1854.42
3.33383,-1878.48
3.37687,-1854.13
3.41992,-1759.17
3.46296,-1549.87
3.506,-1312.62
3.54904,-1371.26
3.59209,-1647.88
3.63513,-1841.57
3.67817,-1937.35
3.72122,-1986.77
3.76426,-2014.67
3.8073,-2031.21
3.85034,-2041.46
3.89339,-2047.85
3.93643,-2052.19
3.97947,-2055.4
4.02252,-2057.97
4.06556,-2060.05
4.1086,-2061.06
4.15164,-2061.81
4.19469,-2061.85
4.23773,-2061.65
4.28077,-2060.71
4.32382,-2059.53
4.36686,-2057.79
4.4099,-2055.21
4.45294,-2052.07
4.49599,-2048.24
4.53903,-2043.2
4.58207,-2036.52
4.62512,-2027.35
4.66816,-2012.48
4.7112,-1987.28
4.75424,-1940.92
4.79729,-1850.35
4.84033,-1676.68
4.88337,-1365.14
4.92642,-927.982
4.96946,-603.223
5.0125,-713.955
5.05554,-1142.43
5.09859,-1536.36
5.14163,-1773.47
5.18467,-1896.3
5.22772,-1958.93
5.27076,-1991.08
5.3138,-2007.67
5.35684,-2015.4
5.39989,-2018.13
5.44293,-2017.39
5.48597,-2012.65
5.52902,-2002.19
5.57206,-1982.04
5.6151,-1943.38
5.65815,-1868.47
5.70119,-1723.64
5.74423,-1467.15
5.78727,-1117.77
5.83032,-865.499
5.87336,-944.694
5.9164,-1262.78
5.95945,-1553.71
6.00249,-1709.5
6.04553,-1759.3
6.08857,-1773.6
6.13162,-1813.51
6.17466,-1883.19
6.2177,-1949.92
6.26075,-1996.43
6.30379,-2024.78
6.34683,-2041.69
6.38987,-2051.89
6.43292,-2058.49
6.47596,-2062.63
6.519,-2065.37
6.56205,-2067.08
6.60509,-2068.2
6.64813,-2068.22
6.69117,-2067.77
6.73422,-2066.02
6.77726,-2063.15
6.8203,-2056.26
6.86335,-2042.57
6.90639,-2015.57
6.94943,-1964.3
6.99247,-1894.4
7.03552,-1842.71
7.07856,-1857.82
7.1216,-1922.16
7.16465,-1982.26
7.20769,-2018.23
7.25073,-2035.92
7.29377,-2042.95
7.33682,-2042.69
7.37986,-2036.79
7.4229,-2023.72
7.46595,-1999.03
7.50899,-1954.42
7.55203,-1878.93
7.59507,-1769.26
7.63812,-1648.53
7.68116,-1574.92
7.7242,-1582.74
7.76725,-1631.73
7.81029,-1661.03
7.85333,-1666.62
7.89637,-1695.87
7.93942,-1772.67
7.98246,-1865.73
8.0255,-1940.35
8.06855,-1987.65
8.11159,-2014.92
8.15463,-2029.75
8.19768,-2037.33
8.24072,-2040.3
8.28376,-2039.65
8.3268,-2035.05
8.36985,-2024.83
8.41289,-2005.12
8.45593,-1969.97
8.49898,-1911.28
8.54202,-1826.69
8.58506,-1734.93
8.6281,-1681.07
8.67115,-1702.89
8.71419,-1782.43
8.75723,-1871.2
8.80028,-1938.03
8.84332,-1977.8
8.88636,-1996.3
8.9294,-1997.35
8.97245,-1981.07
9.01549,-1943.06
9.05853,-1878.83
9.10158,-1798.14
9.14462,-1739.91
9.18766,-1747.44
9.2307,-1815.93
9.27375,-1898.55
9.31679,-1963.87
9.35983,-2005.7
9.40288,-2030.35
9.44592,-2044.56
9.48896,-2052.64
9.532,-2057.33
9.57505,-2059.94
9.61809,-2060.64
9.66113,-2059.9
9.70418,-2057.19
9.74722,-2051.31
9.79026,-2041.27
9.8333,-2024.76
9.87635,-2001.91
9.91939,-1976.69
9.96243,-1959.26
10.00548,-1958.63
10.04852,-1973.21
10.09156,-1991.1
10.1346,-2002.87
10.17765,-2003.91
10.22069,-1991.35
10.26373,-1962.21
10.30678,-1913.02
10.34982,-1845.9
10.39286,-1776.67
10.43591,-1732.39
10.47895,-1730.22
10.52199,-1758.83
10.56503,-1800.44
10.60808,-1848.9
10.65112,-1901.84
10.69416,-1949.9
10.73721,-1986.6
10.78025,-2011.12
10.82329,-2025.8
10.86633,-2033.08
10.90938,-2034.17
10.95242,-2028.59
10.99546,-2014.53
11.03851,-1990.27
11.08155,-1957.94
11.12459,-1928.51
11.16763,-1918.86
11.21068,-1935.42
11.25372,-1965.87
11.29676,-1993.96
11.33981,-2011.23
11.38285,-2016.54
11.42589,-2010.75
11.46893,-1995.6
11.51198,-1975.01
11.55502,-1955.66
11.59806,-1943.76
11.64111,-1941.58
11.68415,-1948.49
11.72719,-1964.41
11.77023,-1987.3
11.81328,-2010.89
11.85632,-2030.22
11.89936,-2043.51
11.94241,-2051.53
11.98545,-2055.48
12.02849,-2056.16
12.07153,-2054.21
12.11458,-2049.97
12.15762,-2044.49
12.20066,-2039.38
12.24371,-2036.52
12.25985,-2036.37

File: XRD 500C-Jamie DeCoster.csv
theta (500C),intensity (500C)
0.2135,-1608.67
0.25691,-1595.07
0.30031,-1585.11
0.34372,-1578
0.38713,-1566.79
0.43054,-1398.25
0.47395,-1175.74
0.51736,-1171.63
0.56076,-1233.33
0.60417,-1278.32
0.64758,-1322.24
0.69099,-1368.97
0.7344,-1402.64
0.77781,-1428.58
0.82121,-1447.58
0.86462,-1462.18
0.90803,-1474.11
0.95144,-1483.07
0.99485,-1489.87
1.03825,-1495.55
1.08166,-1500.51
1.12507,-1505.13
1.16848,-1508.77
1.21189,-1510.81
1.2553,-1513.1
1.2987,-1515.66
1.34211,-1517.47
1.38552,-1519.18
1.42893,-1520.45
1.47234,-1521.4
1.51575,-1522.4
1.55915,-1523.075
1.60256,-1523.76
1.64597,-1524.26
1.68938,-1524.66
1.73279,-1525.32
1.77619,-1525.51
1.8196,-1525.48
1.86301,-1525.69
1.90642,-1525.59
1.94983,-1525.57
1.99324,-1525.07
2.03664,-1524.71
2.08005,-1524.94
2.12346,-1525.13
2.16687,-1525.18
2.21028,-1524.83
2.25369,-1524.47
2.29709,-1523.89
2.3405,-1523.23
2.38391,-1522.11
2.42732,-1520.65
2.47073,-1518.52
2.51414,-1515.88
2.55754,-1512.28
2.60095,-1507.87
2.64436,-1501.79
2.68777,-1493.32
2.73118,-1480.88
2.77458,-1461.06
2.81799,-1426.78
2.8614,-1363.4
2.90481,-1236.26
2.94822,-969.16
2.99163,-501.794
3.03503,-78.86437
3.07844,-166.739
3.12185,-661.681
3.16526,-1075.88
3.20867,-1286.48
3.25208,-1380.85
3.29548,-1421.97
3.33889,-1430.83
3.3823,-1410.82
3.42571,-1344.71
3.46912,-1221.91
3.51252,-1124.87
3.55593,-1174.2
3.59934,-1312.77
3.64275,-1415.47
3.68616,-1466.49
3.72957,-1491.95
3.77297,-1505.72
3.81638,-1513.84
3.85979,-1518.68
3.9032,-1521.75
3.94661,-1524.24
3.99002,-1525.74
4.03342,-1526.94
4.07683,-1527.83
4.12024,-1528.28
4.16365,-1528.48
4.20706,-1528.52
4.25046,-1527.93
4.29387,-1527.33
4.33728,-1526.65
4.38069,-1525.43
4.4241,-1524.28
4.46751,-1522.49
4.51091,-1520.2
4.55432,-1517.02
4.59773,-1513.14
4.64114,-1507.31
4.68455,-1498.02
4.72796,-1480.78
4.77136,-1447.46
4.81477,-1380.22
4.85818,-1250.03
4.90159,-1037.35
4.945,-807.747
4.9884,-733.357
5.03181,-887.071
5.07522,-1128.12
5.11863,-1310.57
5.16204,-1410.84
5.20545,-1460.67
5.24885,-1485.45
5.29226,-1497.86
5.33567,-1503.99
5.37908,-1506.55
5.42249,-1506.9
5.4659,-1505.3
5.5093,-1500.91
5.55271,-1492.53
5.59612,-1476.62
5.63953,-1444.81
5.68294,-1381.11
5.72634,-1261.78
5.76975,-1081.83
5.81316,-914.032
5.85657,-887.524
5.89998,-1022.55
5.94339,-1197.67
5.98679,-1312.81
6.0302,-1358.3
6.07361,-1369.86
6.11702,-1385.89
6.16043,-1419.7
6.20384,-1458.34
6.24724,-1488.03
6.29065,-1506.31
6.33406,-1516.93
6.37747,-1523.46
6.42088,-1527.22
6.46428,-1529.73
6.50769,-1531.36
6.5511,-1532.42
6.59451,-1533.09
6.63792,-1533.2
6.68133,-1532.94
6.72473,-1532.13
6.76814,-1530.45
6.81155,-1527.05
6.85496,-1520.14
6.89837,-1505.76
6.94178,-1479.38
6.98518,-1442.06
7.02859,-1413.31
7.072,-1416.83
7.11541,-1448.42
7.15882,-1482.39
7.20222,-1504.46
7.24563,-1515.31
7.28904,-1519.4
7.33245,-1519.59
7.37586,-1516.42
7.41927,-1509.53
7.46267,-1496
7.50608,-1471.34
7.54949,-1429.25
7.5929,-1367.96
7.63631,-1302.15
7.67972,-1263.21
7.72312,-1267.79
7.76653,-1293.84
7.80994,-1309.5
7.85335,-1314.48
7.89676,-1333.86
7.94017,-1376.91
7.98357,-1427.25
8.02698,-1467.11
8.07039,-1492.2
8.1138,-1506.24
8.15721,-1513.86
8.20061,-1517.52
8.24402,-1518.69
8.28743,-1518.08
8.33084,-1515.12
8.37425,-1509.02
8.41766,-1496.98
8.46106,-1475.35
8.50447,-1439.51
8.54788,-1390.41
8.59129,-1342.22
8.6347,-1321.56
8.67811,-1342.55
8.72151,-1389.61
8.76492,-1436.99
8.80833,-1470.33
8.85174,-1489.11
8.89515,-1496.58
8.93855,-1494.75
8.98196,-1482.58
9.02537,-1457.01
9.06878,-1417.13
9.11219,-1375.07
9.1556,-1354
9.199,-1370.62
9.24241,-1412.98
9.28582,-1456.35
9.32923,-1487.81
9.37264,-1507.06
9.41605,-1517.86
9.45945,-1523.96
9.50286,-1527.42
9.54627,-1529.42
9.58968,-1530.24
9.63309,-1530.41
9.67649,-1529.59
9.7199,-1527.36
9.76331,-1523.23
9.80672,-1516.08
9.85013,-1505.22
9.89354,-1491.37
9.93694,-1478.99
9.98035,-1473.85
10.02376,-1478.26
10.06717,-1488.2
10.11058,-1497.02
10.15399,-1500.78
10.19739,-1497.64
10.2408,-1486.03
10.28421,-1463.78
10.32762,-1430.34
10.37103,-1391.23
10.41443,-1360.062
10.45784,-1349.67
10.50125,-1360.13
10.54466,-1381.29
10.58807,-1407.14
10.63148,-1435.89
10.67488,-1463.71
10.71829,-1486.19
10.7617,-1501.67
10.80511,-1511.03
10.84852,-1516.23
10.89193,-1517.62
10.93533,-1515.81
10.97874,-1509.61
11.02215,-1497.68
11.06556,-1480.61
11.10897,-1463.26
11.15237,-1454.73
11.19578,-1460.34
11.23919,-1475.96
11.2826,-1492.26
11.32601,-1503.53
11.36942,-1507.69
11.41282,-1505.53
11.45623,-1498.27
11.49964,-1487.63
11.54305,-1476.69
11.58646,-1469.43
11.62987,-1467.34
11.67327,-1470.33
11.71668,-1478.31
11.76009,-1490.24
11.8035,-1503.22
11.84691,-1514.08
11.89031,-1521.71
11.93372,-1526.22
11.97713,-1528.46
12.02054,-1529.01
12.06395,-1527.9
12.10736,-1525.66
12.15076,-1522.76
12.19417,-1520.17
12.21045,-1519.33

File: XRD 700C-Jamie DeCoster.csv
2theta (700C),intensity (700C)
0.2135,-1324.47
0.25691,-1310.32
0.30031,-1300.72
0.34372,-1294.47
0.38713,-1286.44
0.43054,-1190.67
0.47395,-1075.4
0.51736,-1077.38
0.56076,-1109.96
0.60417,-1131.34
0.64758,-1150.84
0.69099,-1173.75
0.7344,-1190.38
0.77781,-1202.32
0.82121,-1211.43
0.86462,-1217.8
0.90803,-1223.19
0.95144,-1227.22
0.99485,-1230.25
1.03825,-1232.3
1.08166,-1234.58
1.12507,-1236.93
1.16848,-1238.64
1.21189,-1239.75
1.2553,-1240.41
1.2987,-1241.64
1.34211,-1242.83
1.38552,-1243.67
1.42893,-1244.18
1.47234,-1245.26
1.51575,-1245.5
1.55915,-1246.44
1.60256,-1246.68
1.64597,-1246.86
1.68938,-1246.92
1.73279,-1247.39
1.77619,-1247.49
1.8196,-1247.49
1.86301,-1247.74
1.90642,-1247.87
1.94983,-1247.66
1.99324,-1247.34
2.03664,-1247.19
2.08005,-1247.74
2.12346,-1248.31
2.16687,-1248.54
2.21028,-1248.56
2.25369,-1248.76
2.29709,-1248.69
2.3405,-1248.62
2.38391,-1248.56
2.42732,-1248.1
2.47073,-1247.23
2.51414,-1246.27
2.55754,-1244.84
2.60095,-1242.82
2.64436,-1239.78
2.68777,-1235.5
2.73118,-1228.79
2.77458,-1218.06
2.81799,-1199.99
2.8614,-1168.67
2.90481,-1105.1
2.94822,-908.248
2.99163,-177.976
3.03503,946.026
3.07844,796.8419
3.12185,-412.196
3.16526,-991.551
3.20867,-1134.84
3.25208,-1179.5
3.29548,-1197.57
3.33889,-1201.78
3.3823,-1191.65
3.42571,-1136.43
3.46912,-909.729
3.51252,-624.175
3.55593,-730.239
3.59934,-1058.9
3.64275,-1190.05
3.68616,-1223.13
3.72957,-1235.79
3.77297,-1242.57
3.81638,-1246.66
3.85979,-1249.41
3.9032,-1251.22
3.94661,-1252.58
3.99002,-1253.44
4.03342,-1254.23
4.07683,-1254.62
4.12024,-1255.04
4.16365,-1255.15
4.20706,-1255.05
4.25046,-1254.63
4.29387,-1254.3
4.33728,-1253.69
4.38069,-1252.99
4.4241,-1252.29
4.46751,-1251.28
4.51091,-1250.14
4.55432,-1248.64
4.59773,-1246.44
4.64114,-1243.04
4.68455,-1238.26
4.72796,-1230.42
4.77136,-1216.36
4.81477,-1187.18
4.85818,-1107.34
4.90159,-838.08
4.945,-241.763
4.9884,60.93089
5.03181,-388.894
5.07522,-930.0732
5.11863,-1135.35
5.16204,-1196.84
5.20545,-1220.68
5.24885,-1231.99
5.29226,-1237.95
5.33567,-1241.49
5.37908,-1242.76
5.42249,-1242.99
5.4659,-1242.09
5.5093,-1239.58
5.55271,-1235.2
5.59612,-1227.59
5.63953,-1212.83
5.68294,-1181.68
5.72634,-1096.27
5.76975,-825.233
5.81316,-332.925
5.85657,-198.076
5.89998,-620.895
5.94339,-1007.674
5.98679,-1130.3
6.0302,-1125.22
6.07361,-1061.58
6.11702,-1049.81
6.16043,-1126.5
6.20384,-1200.05
6.24724,-1231.14
6.29065,-1242.88
6.33406,-1248.42
6.37747,-1251.81
6.42088,-1253.69
6.46428,-1255.04
6.50769,-1255.89
6.5511,-1256.49
6.59451,-1256.85
6.63792,-1256.89
6.68133,-1256.71
6.72473,-1256.28
6.76814,-1255.35
6.81155,-1253.74
6.85496,-1250.38
6.89837,-1243.46
6.94178,-1222.71
6.98518,-1156.58
7.02859,-1061.1
7.072,-1062.68
7.11541,-1158.49
7.15882,-1222.05
7.20222,-1241.41
7.24563,-1247.2
7.28904,-1249.08
7.33245,-1249.05
7.37586,-1247.35
7.41927,-1243.99
7.46267,-1237.26
7.50608,-1223.61
7.54949,-1191.78
7.5929,-1109.85
7.63631,-946.487
7.67972,-825.7343
7.72312,-896.23
7.76653,-1036.46
7.80994,-1057.89
7.85335,-978.187
7.89676,-963.738
7.94017,-1069.97
7.98357,-1172.98
8.02698,-1217.48
8.07039,-1234.33
8.1138,-1241.73
8.15721,-1245.53
8.20061,-1247.36
8.24402,-1247.96
8.28743,-1247.58
8.33084,-1245.97
8.37425,-1242.86
8.41766,-1236.64
8.46106,-1223.74
8.50447,-1194.22
8.54788,-1121
8.59129,-983.865
8.6347,-892
8.67811,-963.4767
8.72151,-1104.09
8.76492,-1186.05
8.80833,-1218.76
8.85174,-1231.46
8.89515,-1235.82
8.93855,-1234.94
8.98196,-1228.16
9.02537,-1208.98
9.06878,-1155.61
9.11219,-1041.67
9.1556,-947.573
9.199,-998.24
9.24241,-1124.86
9.28582,-1200.01
9.32923,-1229.27
9.37264,-1241.54
9.41605,-1247.36
9.45945,-1250.69
9.50286,-1252.54
9.54627,-1253.6
9.58968,-1254.17
9.63309,-1254.15
9.67649,-1253.75
9.7199,-1252.54
9.76331,-1250.29
9.80672,-1245.4
9.85013,-1234.7
9.89354,-1210.77
9.93694,-1172.87
9.98035,-1152.49
10.02376,-1174.3
10.06717,-1209.98
10.11058,-1229.75
10.15399,-1236.32
10.19739,-1235.5
10.2408,-1228.51
10.28421,-1211.07
10.32762,-1170.53
10.37103,-1086.37
10.41443,-988.063
10.45784,-973.774
10.50125,-1038.34
10.54466,-1078.33
10.58807,-1097.06
10.63148,-1142.32
10.67488,-1193.53
10.71829,-1222.95
10.7617,-1236.51
10.80511,-1242.8
10.84852,-1245.76
10.89193,-1246.58
10.93533,-1245.55
10.97874,-1241.73
11.02215,-1231.67
11.06556,-1206.23
11.10897,-1155.99
11.15237,-1115.87
11.19578,-1136.34
11.23919,-1190.1
11.2826,-1224.12
11.32601,-1237.19
11.36942,-1240.31
11.41282,-1237.28
11.45623,-1226.47
11.49964,-1203.86
11.54305,-1173.84
11.58646,-1159.15
11.62987,-1164.92
11.67327,-1168.29
11.71668,-1175.56
11.76009,-1200.71
11.8035,-1227.13
11.84691,-1241.8
11.89031,-1248.34
11.93372,-1251.47
11.97713,-1252.72
12.02054,-1252.75
12.06395,-1251.37
12.10736,-1248.04
12.15076,-1241.23
12.19417,-1232.65
12.21045,-1230.29